/*---------------------------------------------------------------------------*\        
boundaryConditions

Application
    Provides boundary-condition information at the surface, tabulated as a function of time.
\*---------------------------------------------------------------------------*/        
/*        
t(s)    p_total_w(Pa)    T_w(K)
*/        
0.00    101325    310.16
0.90    101325    330.18
1.81    101325    350.02
2.72    101325    369.67
3.63    101325    389.15
4.54    101325    408.44
5.45    101325    427.55
6.36    101325    446.48
7.27    101325    465.22
8.18    101325    483.79
9.09    101325    502.17
10.00    101325    520.37
10.90    101325    538.39
11.81    101325    556.23
12.72    101325    573.89
13.63    101325    591.36
14.54    101325    608.65
15.45    101325    625.76
16.36    101325    642.69
17.27    101325    659.44
18.18    101325    676.00
19.09    101325    692.39
20.00    101325    708.59
20.90    101325    724.61
21.81    101325    740.45
22.72    101325    756.10
23.63    101325    771.58
24.54    101325    786.87
25.45    101325    801.98
26.36    101325    816.91
27.27    101325    831.66
28.18    101325    846.22
29.09    101325    860.60
30.00    101325    874.81
30.90    101325    888.83
31.81    101325    902.66
32.72    101325    916.32
33.63    101325    929.79
34.54    101325    943.09
35.45    101325    956.20
36.36    101325    969.13
37.27    101325    981.87
38.18    101325    994.44
39.09    101325    1006.82
40.00    101325    1019.03
40.90    101325    1031.05
41.81    101325    1042.88
42.72    101325    1054.54
43.63    101325    1066.01
44.54    101325    1077.31
45.45    101325    1088.42
46.36    101325    1099.35
47.27    101325    1110.09
48.18    101325    1120.66
49.09    101325    1131.04
50.00    101325    1141.25
50.90    101325    1151.27
51.81    101325    1161.10
52.72    101325    1170.76
53.63    101325    1180.24
54.54    101325    1189.53
55.45    101325    1198.64
56.36    101325    1207.57
57.27    101325    1216.32
58.18    101325    1224.88
59.09    101325    1233.27
60.00    101325    1241.47
60.90    101325    1249.49
61.81    101325    1257.33
62.72    101325    1264.98
63.63    101325    1272.46
64.54    101325    1279.75
65.45    101325    1286.86
66.36    101325    1293.79
67.27    101325    1300.54
68.18    101325    1307.11
69.09    101325    1313.49
70.00    101325    1319.69
70.90    101325    1325.71
71.81    101325    1331.55
72.72    101325    1337.21
73.63    101325    1342.68
74.54    101325    1347.98
75.45    101325    1353.09
76.36    101325    1358.02
77.27    101325    1362.76
78.18    101325    1367.33
79.09    101325    1371.72
80.00    101325    1375.92
80.90    101325    1379.94
81.81    101325    1383.78
82.72    101325    1387.43
83.63    101325    1390.91
84.54    101325    1394.20
85.45    101325    1397.31
86.36    101325    1400.24
87.27    101325    1402.99
88.18    101325    1405.56
89.09    101325    1407.94
90.00    101325    1410.15
90.63    101325    1411.69
91.27    101325    1413.36
91.90    101325    1415.12
92.54    101325    1416.95
93.18    101325    1418.83
93.81    101325    1420.74
94.45    101325    1422.66
95.09    101325    1424.57
95.72    101325    1426.47
96.36    101325    1428.33
97.00    101325    1430.15
97.63    101325    1431.92
98.27    101325    1433.62
98.90    101325    1435.26
99.54    101325    1436.82
100.18    101325    1438.29
100.81    101325    1439.68
101.45    101325    1440.98
102.09    101325    1442.19
102.72    101325    1443.31
103.36    101325    1444.33
104.00    101325    1445.25
104.63    101325    1446.09
105.27    101325    1446.83
105.90    101325    1447.48
106.54    101325    1448.04
107.18    101325    1448.51
107.81    101325    1448.91
108.45    101325    1449.22
109.09    101325    1449.45
109.72    101325    1449.62
110.36    101325    1449.71
111.00    101325    1449.74
111.63    101325    1449.71
112.27    101325    1449.63
112.90    101325    1449.49
113.54    101325    1449.31
114.18    101325    1449.09
114.81    101325    1448.83
115.45    101325    1448.54
116.09    101325    1448.22
116.72    101325    1447.88
117.36    101325    1447.51
118.00    101325    1447.13
118.63    101325    1446.74
119.27    101325    1446.35
119.90    101325    1445.94
120.54    101325    1445.54
121.18    101325    1445.13
121.81    101325    1444.74
122.45    101325    1444.34
123.09    101325    1443.96
123.72    101325    1443.59
124.36    101325    1443.24
125.00    101325    1442.89
125.63    101325    1442.57
126.27    101325    1442.26
126.90    101325    1441.97
127.54    101325    1441.70
128.18    101325    1441.45
128.81    101325    1441.21
129.45    101325    1441.00
130.09    101325    1440.81
130.72    101325    1440.64
131.36    101325    1440.48
132.00    101325    1440.35
132.63    101325    1440.23
133.27    101325    1440.13
133.90    101325    1440.04
134.54    101325    1439.97
135.18    101325    1439.92
135.81    101325    1439.88
136.45    101325    1439.85
137.09    101325    1439.83
137.72    101325    1439.83
138.36    101325    1439.84
139.00    101325    1439.86
139.63    101325    1439.89
140.27    101325    1439.94
140.90    101325    1439.99
141.54    101325    1440.07
142.18    101325    1440.16
142.81    101325    1440.26
143.45    101325    1440.39
144.09    101325    1440.55
144.72    101325    1440.73
145.36    101325    1440.94
146.00    101325    1441.20
146.63    101325    1441.50
147.27    101325    1441.85
147.90    101325    1442.27
148.54    101325    1442.75
149.18    101325    1443.32
149.81    101325    1443.97
150.45    101325    1444.74
151.09    101325    1445.62
151.72    101325    1446.64
152.36    101325    1447.80
153.00    101325    1449.14
153.78    101325    1450.68
154.57    101325    1451.77
155.36    101325    1452.48
156.15    101325    1452.86
156.93    101325    1452.97
157.72    101325    1452.84
158.51    101325    1452.53
159.30    101325    1452.06
160.09    101325    1451.48
160.87    101325    1450.81
161.66    101325    1450.09
162.45    101325    1449.33
163.24    101325    1448.57
164.03    101325    1447.81
164.81    101325    1447.08
165.60    101325    1446.38
166.39    101325    1445.74
167.18    101325    1445.16
167.96    101325    1444.65
168.75    101325    1444.22
169.54    101325    1443.87
170.33    101325    1443.60
171.12    101325    1443.41
171.90    101325    1443.31
172.69    101325    1443.30
173.48    101325    1443.36
174.27    101325    1443.51
175.06    101325    1443.73
175.84    101325    1444.02
176.63    101325    1444.38
177.42    101325    1444.80
178.21    101325    1445.27
179.00    101325    1445.78
179.78    101325    1446.34
180.57    101325    1446.94
181.36    101325    1447.56
182.15    101325    1448.19
182.93    101325    1448.85
183.72    101325    1449.50
184.51    101325    1450.16
185.30    101325    1450.81
186.09    101325    1451.44
186.87    101325    1452.06
187.66    101325    1452.65
188.45    101325    1453.21
189.24    101325    1453.73
190.03    101325    1454.21
190.81    101325    1454.65
191.60    101325    1455.05
192.39    101325    1455.39
193.18    101325    1455.68
193.96    101325    1455.92
194.75    101325    1456.11
195.54    101325    1456.24
196.33    101325    1456.31
197.12    101325    1456.34
197.90    101325    1456.30
198.69    101325    1456.22
199.48    101325    1456.09
200.27    101325    1455.92
201.06    101325    1455.70
201.84    101325    1455.45
202.63    101325    1455.16
203.42    101325    1454.84
204.21    101325    1454.50
205.00    101325    1454.14
205.78    101325    1453.77
206.57    101325    1453.39
207.36    101325    1453.01
208.15    101325    1452.64
208.93    101325    1452.28
209.72    101325    1451.94
210.51    101325    1451.62
211.30    101325    1451.33
212.09    101325    1451.08
212.87    101325    1450.87
213.66    101325    1450.70
214.45    101325    1450.59
215.24    101325    1450.53
216.03    101325    1450.52
216.81    101325    1450.58
217.60    101325    1450.70
218.39    101325    1450.87
219.18    101325    1451.11
219.96    101325    1451.41
220.75    101325    1451.75
221.54    101325    1452.15
222.33    101325    1452.59
223.12    101325    1453.07
223.90    101325    1453.56
224.69    101325    1454.07
225.48    101325    1454.57
226.27    101325    1455.05
227.06    101325    1455.49
227.84    101325    1455.86
228.63    101325    1456.14
229.42    101325    1456.31
230.21    101325    1456.32
231.00    101325    1456.15
231.46    101325    1449.50
231.92    101325    1442.89
232.39    101325    1436.34
232.85    101325    1429.82
233.32    101325    1423.35
233.78    101325    1416.93
234.25    101325    1410.55
234.71    101325    1404.21
235.18    101325    1397.92
235.64    101325    1391.67
236.11    101325    1385.47
236.57    101325    1379.31
237.04    101325    1373.20
237.50    101325    1367.13
237.96    101325    1361.11
238.43    101325    1355.13
238.89    101325    1349.19
239.36    101325    1343.30
239.82    101325    1337.46
240.29    101325    1331.66
240.75    101325    1325.90
241.22    101325    1320.19
241.68    101325    1314.52
242.15    101325    1308.90
242.61    101325    1303.32
243.08    101325    1297.79
243.54    101325    1292.30
244.01    101325    1286.85
244.47    101325    1281.45
244.93    101325    1276.10
245.40    101325    1270.78
245.86    101325    1265.52
246.33    101325    1260.30
246.79    101325    1255.12
247.26    101325    1249.99
247.72    101325    1244.90
248.19    101325    1239.85
248.65    101325    1234.85
249.12    101325    1229.90
249.58    101325    1224.99
250.05    101325    1220.12
250.51    101325    1215.30
250.97    101325    1210.53
251.44    101325    1205.79
251.90    101325    1201.11
252.37    101325    1196.46
252.83    101325    1191.87
253.30    101325    1187.31
253.76    101325    1182.80
254.23    101325    1178.34
254.69    101325    1173.92
255.16    101325    1169.54
255.62    101325    1165.21
256.09    101325    1160.93
256.55    101325    1156.68
257.02    101325    1152.49
257.48    101325    1148.33
257.94    101325    1144.22
258.41    101325    1140.16
258.87    101325    1136.14
259.34    101325    1132.17
259.80    101325    1128.24
260.27    101325    1124.35
260.73    101325    1120.51
261.20    101325    1116.71
261.66    101325    1112.96
262.13    101325    1109.26
262.59    101325    1105.59
263.06    101325    1101.97
263.52    101325    1098.40
263.98    101325    1094.87
264.45    101325    1091.39
264.91    101325    1087.95
265.38    101325    1084.55
265.84    101325    1081.20
266.31    101325    1077.89
266.77    101325    1074.63
267.24    101325    1071.42
267.70    101325    1068.24
268.17    101325    1065.11
268.63    101325    1062.03
269.10    101325    1058.99
269.56    101325    1056.00
270.03    101325    1053.05
270.49    101325    1050.14
270.95    101325    1047.28
271.42    101325    1044.47
271.88    101325    1041.69
272.35    101325    1038.97
272.81    101325    1036.28
273.28    101325    1033.65
273.74    101325    1031.05
274.21    101325    1028.50
274.67    101325    1026.00
275.14    101325    1023.54
275.60    101325    1021.12
276.07    101325    1018.75
276.53    101325    1016.43
277.00    101325    1014.15
